Folder: CNT-PINN

File: CNT_Reinforced Concrete_Final Dataset.csv
S.No,Curing (days),Cement (kg/m³),w/c,Coarse aggregate (kg/m³),Fine aggregate (kg/m³),CNT (%),Compressive strength (MPa)
1,28,360,0.5,950,745,0,39.5
3,28,328.5,0.68,533.7,625.1,0,40
5,28,320,0.56,845,834,0,40.3
7,28,302,0.56,898,828,0,40.8
9,28,340,0.5,845,893,0,41.1
11,28,400,0.45,845,863,0,41.3
13,28,360,0.5,845,848,0,41.5
15,28,405,0.44,950,702,0,41.5
17,28,360,0.5,845,789,0,42
19,28,360,0.5,950,686,0,42.4
21,28,405,0.44,898,754,0,43
23,28,340,0.5,950,734,0,43.3
25,28,405,0.44,845,805,0,43.6
27,28,412.5,0.49,520.1,612.7,0,44
29,28,383,0.44,950,749,0,45
31,28,340,0.5,898,786,0,45.1
33,28,425,0.4,950,764,0,46
35,28,425,0.4,845,853,0,47.1
37,28,401.5,0.51,518.6,610.9,0,50
39,28,400,0.5,1128,572,0,43.1
41,28,425,0.47,1096.5,544,0,47.2
43,28,450,0.44,1057.5,513,0,49.6
45,28,475,0.42,1040.25,498.75,0,54
47,28,375,0.53,1143.75,592.5,0,37.8
49,28,400,0.53,1196,616,0,40.9
51,28,425,0.49,1177.25,590.75,0,45.3
53,28,450,0.44,1057.5,513,0,52
55,28,450,0.49,1228.5,616.5,0,46.6
57,28,475,0.44,1168.5,565.25,0,53.1
59,28,425,0.52,858.5,607.75,0,40
61,28,450,0.51,891,175.5,0,42.7
63,28,475,0.48,869.25,598.5,0,45.5
65,28,350,0.54,1197,521.5,0,31.7
67,28,375,0.51,1196.25,506.25,0,40.7
69,28,400,0.48,1168,484,0,44.9
71,28,425,0.45,1139,463.25,0,49.1
73,28,350,0.54,1197,521.5,0,36.6
75,28,400,0.48,1168,484,0,46.2
77,28,450,0.42,1102.5,441,0,54.1
79,28,400,0.5,884,528,0,44
81,28,425,0.47,862.75,505.75,0,47.4
83,28,450,0.44,837,481.5,0,50.9
85,28,475,0.42,798,451.25,0,54.1
87,56,375,0.53,1143.75,592.5,0,40.9
89,56,400,0.53,1196,616,0,45.5
91,56,425,0.49,1177.25,590.75,0,50.7
93,56,450,0.47,1143,562.5,0,51.3
95,56,475,0.44,1168.5,565.25,0,55.7
97,56,400,0.5,1128,572,0,50.9
99,56,425,0.47,1096.5,544,0,52.9
101,56,425,0.51,1253.75,641.75,0,49.1
103,56,450,0.47,1143,562.5,0,53.4
105,56,475,0.42,1040.25,498.75,0,58.7
107,56,475,0.46,1192.25,584.25,0,54
109,56,450,0.49,837,580.5,0,50.4
111,56,475,0.46,817,560.5,0,53.5
113,56,350,0.51,1141,486.5,0,43.3
115,56,375,0.48,1121.25,468.75,0,48.2
117,56,400,0.45,1080,440,0,52.9
119,56,425,0.42,1049.75,416.5,0,57.6
121,56,450,0.42,1102.5,441,0,57.8
123,56,375,0.51,1196.25,506.25,0,46.8
125,56,425,0.45,1139,463.25,0,56
127,56,375,0.53,903.75,551.25,0,43.5
129,56,400,0.53,944,576,0,46.1
131,56,425,0.49,926.5,548.25,0,50.7
133,56,450,0.47,900,526.5,0,52.6
135,56,475,0.44,874,503.5,0,56.4
137,91,400,0.5,1128,572,0,51.9
139,91,425,0.47,1096.5,544,0,54.3
141,91,450,0.44,1057.5,513,0,58
143,91,475,0.42,1040.25,498.75,0,60.2
145,91,375,0.53,1143.75,592.5,0,47.6
147,91,400,0.53,1196,616,0,51.1
149,91,425,0.49,1177.25,590.75,0,53.1
151,91,450,0.44,1057.5,513,0,59.2
153,91,450,0.49,1228.5,616.5,0,53.7
155,91,475,0.44,1168.5,565.25,0,62.6
157,91,425,0.52,858.5,607.75,0,48.5
159,91,450,0.51,891,175.5,0,49.6
161,91,475,0.48,869.25,598.5,0,53.6
163,91,350,0.54,1197,521.5,0,43.9
165,91,375,0.51,1196.25,506.25,0,46.4
167,91,400,0.48,1168,484,0,53.9
169,91,425,0.45,1139,463.25,0,57.4
171,91,350,0.54,1197,521.5,0,46.6
173,91,400,0.48,1168,484,0,53.1
175,91,450,0.42,1102.5,441,0,62.3
177,91,400,0.5,884,528,0,52.6
179,91,425,0.47,862.75,505.75,0,54.8
181,91,450,0.44,837,481.5,0,59.1
183,91,475,0.42,798,451.25,0,61.1
185,7,380,0.46,1466.8,790.4,0,23.4
187,56,380,0.46,1466.8,790.4,0,36.6
189,7,410,0.5,1132,609,0,36.9
191,56,410,0.5,1132,609,0,57.1
193,180,410,0.5,1132,609,0,60.6
195,180,250,0.87,555,1285,0,26.6
197,180,300,0.75,536,1242,0,34.2
199,180,350,0.66,517,1197,0,41.4
201,180,400,0.6,498,1154,0,48
203,14,335,0.58,1240,605,0,30.43
205,7,335,0.58,1240,605,0,27.45
207,28,335,0.58,1240,605,0,40.03
209,14,335,0.58,1240,605,0,32.64
211,7,335,0.58,1240,605,0,23.81
213,28,335,0.58,1240,605,0,41.52
215,7,400,0.49,1105,654,0,34
217,1,400,0.49,1105,654,5,16.67
219,28,400,0.49,1105,654,5,50.55
221,7,400,0.49,1105,654,10,46.08
223,1,400,0.49,1105,654,5,19.07
225,28,400,0.49,1105,654,5,51.61
227,7,400,0.49,1105,654,10,43
229,1,400,0.49,1105,654,10,20.52
231,28,400,0.49,1105,654,10,51.71
233,28,355.96,0.5,1032.3,848.38,0.25,27.34
235,28,355.96,0.5,1032.3,848.38,1,37.69
237,28,355.96,0.4,1032.3,848.38,0,22.52
239,28,355.96,0.4,1032.3,848.38,0.5,35.89
241,28,355.96,0.4,1032.3,848.38,1,46.97
243,28,355.96,0.4,1032.3,848.38,1.5,34.08
245,28,355.96,0.75,1032.3,848.38,0,15.89
247,28,355.96,0.75,1032.3,848.38,0.5,16.74
249,28,355.96,0.75,1032.3,848.38,1,17.58
251,28,355.96,0.75,1032.3,848.38,1.5,25.41
253,28,355.96,0.75,1032.3,848.38,2,15.17
255,28,350,0.4,1121.208,659.604,0,49.2
257,28,350,0.4,1121.208,659.604,0.1,52.7
259,28,350,0.4,1121.208,659.604,0.2,58.16
261,28,350,0.4,1121.208,659.604,0.3,60.3
263,28,350,0.4,1121.208,659.604,0.4,61.26
265,28,350,0.4,1121.208,659.604,0.5,62.66
267,28,380,0.55,952,696,0,47.5
269,7,380,0.55,952,696,0.05,40.4
271,90,380,0.55,952,696,0.05,59.2
273,28,380,0.55,952,696,0.1,57.5
275,7,380,0.55,952,696,0.5,38.4
277,90,380,0.55,952,696,0.5,57.5
279,28,380,0.55,951.3,756.8,0.05,52.1
281,28,380,0.56,952,757,0,45.6
283,28,380,0.55,952,757,0.1,57.5
285,28,380,0.55,952,757,0.05,52.1
287,28,380,0.55,952,757,0.05,51.6
289,28,380,0.55,952,757,0.05,46.2
291,28,400,0.45,987,780,–,64.7
293,28,450,0.35,1006,768,–,78.3
295,28,525,0.45,0,1580,0,29.875
297,28,525,0.45,0,1580,0.12,31.25